File: survey_sample/csv/1% SiO2_003.csv
Created as New Dataset,Sample 022 By Administrator Date Saturday, February 11 2017
cm-1,%T
4000.00,98.78
3997.00,98.78
3994.00,98.77
3991.00,98.76
3988.00,98.77
3985.00,98.77
3982.00,98.76
3979.00,98.77
3976.00,98.77
3973.00,98.75
3970.00,98.76
3967.00,98.76
3964.00,98.75
3961.00,98.76
3958.00,98.76
3955.00,98.76
3952.00,98.74
3949.00,98.74
3946.00,98.73
3943.00,98.70
3940.00,98.73
3937.00,98.75
3934.00,98.74
3931.00,98.73
3928.00,98.70
3925.00,98.71
3922.00,98.73
3919.00,98.78
3916.00,98.74
3913.00,98.74
3910.00,98.76
3907.00,98.75
3904.00,98.85
3901.00,98.78
3898.00,98.74
3895.00,98.75
3892.00,98.79
3889.00,98.78
3886.00,98.76
3883.00,98.70
3880.00,98.71
3877.00,98.71
3874.00,98.71
3871.00,98.69
3868.00,98.76
3865.00,98.78
3862.00,98.77
3859.00,98.79
3856.00,98.82
3853.00,98.81
3850.00,98.74
3847.00,98.77
3844.00,98.75
3841.00,98.72
3838.00,98.75
3835.00,98.77
3832.00,98.77
3829.00,98.75
3826.00,98.77
3823.00,98.72
3820.00,98.75
3817.00,98.66
3814.00,98.76
3811.00,98.77
3808.00,98.77
3805.00,98.76
3802.00,98.69
3799.00,98.70
3796.00,98.72
3793.00,98.74
3790.00,98.74
3787.00,98.73
3784.00,98.72
3781.00,98.67
3778.00,98.72
3775.00,98.74
3772.00,98.74
3769.00,98.75
3766.00,98.73
3763.00,98.72
3760.00,98.72
3757.00,98.70
3754.00,98.69
3751.00,98.92
3748.00,98.92
3745.00,98.81
3742.00,98.77
3739.00,98.76
3736.00,98.74
3733.00,98.74
3730.00,98.77
3727.00,98.74
3724.00,98.65
3721.00,98.67
3718.00,98.73
3715.00,98.71
3712.00,98.75
3709.00,98.69
3706.00,98.71
3703.00,98.65
3700.00,98.66
3697.00,98.68
3694.00,98.66
3691.00,98.64
3688.00,98.60
3685.00,98.63
3682.00,98.60
3679.00,98.53
3676.00,98.43
3673.00,98.52
3670.00,98.51
3667.00,98.50
3664.00,98.51
3661.00,98.51
3658.00,98.48
3655.00,98.45
3652.00,98.30
3649.00,98.30
3646.00,98.23
3643.00,98.28
3640.00,98.25
3637.00,98.22
3634.00,98.20
3631.00,98.22
3628.00,98.19
3625.00,98.07
3622.00,98.06
3619.00,98.00
3616.00,97.93
3613.00,97.95
3610.00,97.93
3607.00,97.82
3604.00,97.78
3601.00,97.76
3598.00,97.73
3595.00,97.66
3592.00,97.67
3589.00,97.65
3586.00,97.57
3583.00,97.61
3580.00,97.59
3577.00,97.56
3574.00,97.53
3571.00,97.48
3568.00,97.37
3565.00,97.32
3562.00,97.38
3559.00,97.36
3556.00,97.34
3553.00,97.31
3550.00,97.28
3547.00,97.23
3544.00,97.19
3541.00,97.17
3538.00,97.14
3535.00,97.10
3532.00,97.07
3529.00,97.03
3526.00,96.97
3523.00,96.92
3520.00,96.91
3517.00,96.88
3514.00,96.83
3511.00,96.76
3508.00,96.72
3505.00,96.69
3502.00,96.65
3499.00,96.65
3496.00,96.62
3493.00,96.59
3490.00,96.55
3487.00,96.51
3484.00,96.49
3481.00,96.46
3478.00,96.44
3475.00,96.43
3472.00,96.40
3469.00,96.37
3466.00,96.36
3463.00,96.35
3460.00,96.33
3457.00,96.31
3454.00,96.30
3451.00,96.29
3448.00,96.26
3445.00,96.24
3442.00,96.24
3439.00,96.23
3436.00,96.24
3433.00,96.24
3430.00,96.24
3427.00,96.24
3424.00,96.24
3421.00,96.24
3418.00,96.24
3415.00,96.23
3412.00,96.23
3409.00,96.24
3406.00,96.26
3403.00,96.26
3400.00,96.25
3397.00,96.25
3394.00,96.26
3391.00,96.25
3388.00,96.23
3385.00,96.23
3382.00,96.22
3379.00,96.20
3376.00,96.20
3373.00,96.19
3370.00,96.19
3367.00,96.17
3364.00,96.14
3361.00,96.14
3358.00,96.13
3355.00,96.12
3352.00,96.10
3349.00,96.11
3346.00,96.10
3343.00,96.10
3340.00,96.10
3337.00,96.10
3334.00,96.08
3331.00,96.09
3328.00,96.10
3325.00,96.12
3322.00,96.12
3319.00,96.11
3316.00,96.14
3313.00,96.15
3310.00,96.15
3307.00,96.17
3304.00,96.18
3301.00,96.18
3298.00,96.18
3295.00,96.17
3292.00,96.19
3289.00,96.19
3286.00,96.19
3283.00,96.18
3280.00,96.20
3277.00,96.21
3274.00,96.21
3271.00,96.22
3268.00,96.20
3265.00,96.20
3262.00,96.19
3259.00,96.21
3256.00,96.21
3253.00,96.22
3250.00,96.23
3247.00,96.24
3244.00,96.23
3241.00,96.23
3238.00,96.24
3235.00,96.26
3232.00,96.26
3229.00,96.26
3226.00,96.26
3223.00,96.30
3220.00,96.30
3217.00,96.31
3214.00,96.34
3211.00,96.35
3208.00,96.36
3205.00,96.39
3202.00,96.40
3199.00,96.42
3196.00,96.43
3193.00,96.45
3190.00,96.47
3187.00,96.50
3184.00,96.52
3181.00,96.54
3178.00,96.56
3175.00,96.56
3172.00,96.58
3169.00,96.61
3166.00,96.62
3163.00,96.64
3160.00,96.65
3157.00,96.67
3154.00,96.69
3151.00,96.71
3148.00,96.73
3145.00,96.75
3142.00,96.75
3139.00,96.75
3136.00,96.77
3133.00,96.79
3130.00,96.79
3127.00,96.80
3124.00,96.82
3121.00,96.84
3118.00,96.86
3115.00,96.88
3112.00,96.88
3109.00,96.90
3106.00,96.91
3103.00,96.92
3100.00,96.92
3097.00,96.93
3094.00,96.94
3091.00,96.97
3088.00,96.99
3085.00,96.97
3082.00,96.99
3079.00,97.01
3076.00,97.01
3073.00,97.00
3070.00,97.02
3067.00,97.04
3064.00,97.05
3061.00,97.06
3058.00,97.08
3055.00,97.10
3052.00,97.11
3049.00,97.12
3046.00,97.14
3043.00,97.16
3040.00,97.17
3037.00,97.19
3034.00,97.21
3031.00,97.21
3028.00,97.21
3025.00,97.24
3022.00,97.25
3019.00,97.25
3016.00,97.27
3013.00,97.28
3010.00,97.27
3007.00,97.27
3004.00,97.25
3001.00,97.23
2998.00,97.21
2995.00,97.17
2992.00,97.11
2989.00,97.02
2986.00,96.94
2983.00,96.90
2980.00,96.86
2977.00,96.79
2974.00,96.74
2971.00,96.65
2968.00,96.58
2965.00,96.56
2962.00,96.57
2959.00,96.62
2956.00,96.70
2953.00,96.78
2950.00,96.80
2947.00,96.82
2944.00,96.83
2941.00,96.80
2938.00,96.79
2935.00,96.75
2932.00,96.76
2929.00,96.78
2926.00,96.78
2923.00,96.79
2920.00,96.86
2917.00,96.91
2914.00,96.93
2911.00,96.94
2908.00,96.97
2905.00,97.01
2902.00,97.03
2899.00,97.06
2896.00,97.09
2893.00,97.11
2890.00,97.10
2887.00,97.07
2884.00,97.03
2881.00,96.99
2878.00,96.95
2875.00,96.96
2872.00,96.98
2869.00,97.00
2866.00,97.05
2863.00,97.12
2860.00,97.20
2857.00,97.25
2854.00,97.29
2851.00,97.34
2848.00,97.37
2845.00,97.38
2842.00,97.44
2839.00,97.51
2836.00,97.57
2833.00,97.60
2830.00,97.64
2827.00,97.67
2824.00,97.71
2821.00,97.73
2818.00,97.76
2815.00,97.78
2812.00,97.80
2809.00,97.81
2806.00,97.82
2803.00,97.83
2800.00,97.84
2797.00,97.86
2794.00,97.87
2791.00,97.88
2788.00,97.87
2785.00,97.88
2782.00,97.90
2779.00,97.92
2776.00,97.93
2773.00,97.94
2770.00,97.94
2767.00,97.95
2764.00,97.95
2761.00,97.96
2758.00,97.97
2755.00,97.96
2752.00,97.98
2749.00,97.99
2746.00,97.99
2743.00,97.99
2740.00,98.00
2737.00,98.02
2734.00,98.01
2731.00,98.02
2728.00,98.04
2725.00,98.05
2722.00,98.04
2719.00,98.04
2716.00,98.06
2713.00,98.06
2710.00,98.07
2707.00,98.07
2704.00,98.07
2701.00,98.08
2698.00,98.08
2695.00,98.09
2692.00,98.10
2689.00,98.11
2686.00,98.10
2683.00,98.11
2680.00,98.11
2677.00,98.10
2674.00,98.11
2671.00,98.10
2668.00,98.12
2665.00,98.11
2662.00,98.10
2659.00,98.08
2656.00,98.07
2653.00,98.08
2650.00,98.07
2647.00,98.07
2644.00,98.08
2641.00,98.08
2638.00,98.06
2635.00,98.05
2632.00,98.03
2629.00,98.03
2626.00,98.03
2623.00,98.01
2620.00,97.98
2617.00,97.98
2614.00,97.97
2611.00,97.93
2608.00,97.91
2605.00,97.92
2602.00,97.90
2599.00,97.89
2596.00,97.87
2593.00,97.88
2590.00,97.88
2587.00,97.86
2584.00,97.87
2581.00,97.90
2578.00,97.88
2575.00,97.89
2572.00,97.88
2569.00,97.88
2566.00,97.90
2563.00,97.89
2560.00,97.88
2557.00,97.90
2554.00,97.90
2551.00,97.88
2548.00,97.85
2545.00,97.84
2542.00,97.82
2539.00,97.78
2536.00,97.71
2533.00,97.63
2530.00,97.49
2527.00,97.39
2524.00,97.30
2521.00,97.19
2518.00,97.11
2515.00,97.07
2512.00,97.08
2509.00,97.10
2506.00,97.21
2503.00,97.35
2500.00,97.49
2497.00,97.62
2494.00,97.72
2491.00,97.82
2488.00,97.88
2485.00,97.92
2482.00,97.97
2479.00,98.02
2476.00,98.05
2473.00,98.08
2470.00,98.11
2467.00,98.15
2464.00,98.14
2461.00,98.12
2458.00,98.12
2455.00,98.12
2452.00,98.14
2449.00,98.16
2446.00,98.15
2443.00,98.18
2440.00,98.17
2437.00,98.17
2434.00,98.20
2431.00,98.20
2428.00,98.20
2425.00,98.21
2422.00,98.22
2419.00,98.22
2416.00,98.22
2413.00,98.25
2410.00,98.25
2407.00,98.28
2404.00,98.30
2401.00,98.29
2398.00,98.30
2395.00,98.31
2392.00,98.32
2389.00,98.35
2386.00,98.34
2383.00,98.36
2380.00,98.37
2377.00,98.45
2374.00,98.45
2371.00,98.39
2368.00,98.40
2365.00,98.38
2362.00,98.29
2359.00,98.30
2356.00,98.36
2353.00,98.37
2350.00,98.35
2347.00,98.35
2344.00,98.34
2341.00,98.37
2338.00,98.33
2335.00,98.34
2332.00,98.34
2329.00,98.37
2326.00,98.24
2323.00,98.22
2320.00,98.29
2317.00,98.28
2314.00,98.26
2311.00,98.26
2308.00,98.29
2305.00,98.27
2302.00,98.24
2299.00,98.25
2296.00,98.25
2293.00,98.20
2290.00,98.16
2287.00,98.16
2284.00,98.15
2281.00,98.17
2278.00,98.18
2275.00,98.22
2272.00,98.23
2269.00,98.21
2266.00,98.23
2263.00,98.25
2260.00,98.22
2257.00,98.26
2254.00,98.29
2251.00,98.27
2248.00,98.21
2245.00,98.22
2242.00,98.23
2239.00,98.23
2236.00,98.21
2233.00,98.20
2230.00,98.22
2227.00,98.21
2224.00,98.21
2221.00,98.22
2218.00,98.21
2215.00,98.18
2212.00,98.18
2209.00,98.19
2206.00,98.22
2203.00,98.19
2200.00,98.19
2197.00,98.21
2194.00,98.21
2191.00,98.23
2188.00,98.26
2185.00,98.30
2182.00,98.34
2179.00,98.28
2176.00,98.32
2173.00,98.28
2170.00,98.21
2167.00,98.14
2164.00,98.14
2161.00,98.20
2158.00,98.60
2155.00,98.55
2152.00,98.47
2149.00,98.46
2146.00,98.49
2143.00,98.46
2140.00,98.46
2137.00,98.49
2134.00,98.52
2131.00,98.54
2128.00,98.55
2125.00,98.53
2122.00,98.49
2119.00,98.47
2116.00,98.44
2113.00,98.42
2110.00,98.43
2107.00,98.43
2104.00,98.43
2101.00,98.43
2098.00,98.43
2095.00,98.45
2092.00,98.45
2089.00,98.44
2086.00,98.42
2083.00,98.39
2080.00,98.37
2077.00,98.35
2074.00,98.35
2071.00,98.37
2068.00,98.38
2065.00,98.38
2062.00,98.36
2059.00,98.37
2056.00,98.38
2053.00,98.34
2050.00,98.29
2047.00,98.38
2044.00,98.38
2041.00,98.39
2038.00,98.42
2035.00,98.40
2032.00,98.49
2029.00,98.59
2026.00,98.57
2023.00,98.58
2020.00,98.64
2017.00,98.65
2014.00,98.64
2011.00,98.54
2008.00,98.64
2005.00,98.74
2002.00,98.63
1999.00,98.51
1996.00,98.54
1993.00,98.58
1990.00,98.55
1987.00,98.46
1984.00,98.45
1981.00,98.38
1978.00,98.40
1975.00,98.59
1972.00,98.67
1969.00,98.66
1966.00,98.60
1963.00,98.58
1960.00,98.65
1957.00,98.73
1954.00,98.70
1951.00,98.67
1948.00,98.70
1945.00,98.73
1942.00,98.72
1939.00,98.73
1936.00,98.71
1933.00,98.68
1930.00,98.70
1927.00,98.72
1924.00,98.71
1921.00,98.70
1918.00,98.73
1915.00,98.74
1912.00,98.70
1909.00,98.71
1906.00,98.70
1903.00,98.70
1900.00,98.74
1897.00,98.75
1894.00,98.76
1891.00,98.74
1888.00,98.77
1885.00,98.78
1882.00,98.81
1879.00,98.81
1876.00,98.81
1873.00,98.80
1870.00,98.82
1867.00,98.82
1864.00,98.82
1861.00,98.82
1858.00,98.85
1855.00,98.83
1852.00,98.85
1849.00,98.84
1846.00,98.89
1843.00,98.88
1840.00,98.84
1837.00,98.83
1834.00,98.80
1831.00,98.71
1828.00,98.73
1825.00,98.75
1822.00,98.76
1819.00,98.73
1816.00,98.71
1813.00,98.67
1810.00,98.57
1807.00,98.37
1804.00,97.92
1801.00,97.22
1798.00,96.76
1795.00,96.68
1792.00,97.10
1789.00,97.66
1786.00,97.96
1783.00,98.02
1780.00,98.07
1777.00,98.04
1774.00,98.01
1771.00,97.89
1768.00,97.80
1765.00,97.71
1762.00,97.61
1759.00,97.48
1756.00,97.38
1753.00,97.22
1750.00,97.07
1747.00,97.06
1744.00,96.88
1741.00,96.77
1738.00,96.65
1735.00,96.61
1732.00,96.43
1729.00,96.25
1726.00,96.23
1723.00,96.16
1720.00,96.05
1717.00,96.22
1714.00,95.95
1711.00,95.84
1708.00,95.74
1705.00,95.65
1702.00,95.60
1699.00,95.53
1696.00,95.17
1693.00,94.80
1690.00,94.37
1687.00,93.93
1684.00,93.03
1681.00,92.46
1678.00,91.91
1675.00,91.22
1672.00,90.64
1669.00,89.88
1666.00,89.42
1663.00,88.97
1660.00,88.53
1657.00,88.27
1654.00,87.89
1651.00,87.65
1648.00,87.55
1645.00,87.36
1642.00,87.30
1639.00,87.19
1636.00,87.01
1633.00,87.00
1630.00,87.03
1627.00,87.13
1624.00,87.39
1621.00,87.75
1618.00,88.15
1615.00,88.67
1612.00,89.08
1609.00,89.65
1606.00,90.25
1603.00,90.85
1600.00,91.36
1597.00,91.75
1594.00,92.03
1591.00,92.18
1588.00,92.30
1585.00,92.44
1582.00,92.55
1579.00,92.68
1576.00,92.96
1573.00,93.01
1570.00,93.03
1567.00,93.09
1564.00,93.13
1561.00,92.98
1558.00,93.00
1555.00,93.09
1552.00,92.81
1549.00,92.46
1546.00,92.20
1543.00,91.89
1540.00,90.94
1537.00,90.42
1534.00,89.90
1531.00,89.21
1528.00,88.69
1525.00,88.04
1522.00,87.22
1519.00,85.87
1516.00,84.28
1513.00,83.26
1510.00,82.29
1507.00,81.00
1504.00,80.33
1501.00,79.83
1498.00,78.96
1495.00,77.49
1492.00,76.52
1489.00,74.76
1486.00,73.35
1483.00,72.17
1480.00,70.64
1477.00,69.36
1474.00,67.94
1471.00,65.67
1468.00,64.66
1465.00,63.01
1462.00,61.54
1459.00,60.60
1456.00,57.92
1453.00,56.74
1450.00,55.43
1447.00,53.68
1444.00,52.38
1441.00,51.10
1438.00,49.95
1435.00,47.89
1432.00,46.77
1429.00,45.22
1426.00,44.19
1423.00,42.93
1420.00,42.11
1417.00,40.86
1414.00,40.63
1411.00,40.65
1408.00,41.16
1405.00,42.05
1402.00,42.92
1399.00,43.40
1396.00,44.01
1393.00,45.31
1390.00,46.92
1387.00,48.75
1384.00,50.42
1381.00,52.12
1378.00,53.81
1375.00,55.38
1372.00,56.91
1369.00,58.34
1366.00,59.68
1363.00,60.93
1360.00,62.23
1357.00,63.56
1354.00,64.87
1351.00,66.05
1348.00,67.11
1345.00,68.09
1342.00,68.97
1339.00,69.64
1336.00,70.05
1333.00,70.25
1330.00,70.16
1327.00,69.85
1324.00,69.46
1321.00,69.23
1318.00,69.39
1315.00,70.35
1312.00,72.26
1309.00,74.14
1306.00,75.40
1303.00,76.21
1300.00,76.82
1297.00,77.34
1294.00,77.83
1291.00,78.31
1288.00,78.74
1285.00,79.15
1282.00,79.52
1279.00,79.79
1276.00,79.89
1273.00,79.88
1270.00,79.75
1267.00,79.45
1264.00,79.10
1261.00,78.98
1258.00,79.08
1255.00,79.23
1252.00,79.30
1249.00,79.28
1246.00,79.24
1243.00,79.26
1240.00,79.31
1237.00,79.40
1234.00,79.51
1231.00,79.66
1228.00,79.88
1225.00,80.17
1222.00,80.51
1219.00,80.91
1216.00,81.30
1213.00,81.72
1210.00,82.16
1207.00,82.54
1204.00,82.89
1201.00,83.20
1198.00,83.43
1195.00,83.53
1192.00,83.40
1189.00,83.08
1186.00,82.64
1183.00,82.24
1180.00,82.00
1177.00,82.10
1174.00,82.51
1171.00,83.03
1168.00,83.48
1165.00,83.88
1162.00,84.21
1159.00,84.51
1156.00,84.76
1153.00,84.88
1150.00,84.99
1147.00,85.12
1144.00,85.22
1141.00,85.30
1138.00,85.36
1135.00,85.35
1132.00,85.28
1129.00,85.14
1126.00,84.95
1123.00,84.77
1120.00,84.60
1117.00,84.39
1114.00,84.21
1111.00,84.07
1108.00,83.92
1105.00,83.79
1102.00,83.75
1099.00,83.83
1096.00,83.91
1093.00,84.02
1090.00,84.08
1087.00,84.05
1084.00,84.02
1081.00,84.12
1078.00,84.39
1075.00,84.59
1072.00,84.69
1069.00,84.78
1066.00,84.88
1063.00,84.93
1060.00,84.88
1057.00,84.80
1054.00,84.67
1051.00,84.49
1048.00,84.31
1045.00,84.22
1042.00,84.22
1039.00,84.27
1036.00,84.32
1033.00,84.46
1030.00,84.62
1027.00,84.80
1024.00,85.01
1021.00,85.18
1018.00,85.25
1015.00,85.30
1012.00,85.59
1009.00,86.27
1006.00,87.00
1003.00,87.57
1000.00,88.01
997.00,88.43
994.00,88.78
991.00,89.05
988.00,89.31
985.00,89.56
982.00,89.74
979.00,89.91
976.00,90.09
973.00,90.22
970.00,90.37
967.00,90.46
964.00,90.49
961.00,90.56
958.00,90.66
955.00,90.73
952.00,90.81
949.00,90.92
946.00,91.01
943.00,91.13
940.00,91.21
937.00,91.26
934.00,91.35
931.00,91.47
928.00,91.60
925.00,91.74
922.00,91.83
919.00,91.90
916.00,91.94
913.00,92.01
910.00,92.14
907.00,92.30
904.00,92.39
901.00,92.43
898.00,92.46
895.00,92.42
892.00,92.21
889.00,91.21
886.00,86.16
883.00,76.84
880.00,66.90
877.00,57.68
874.00,54.28
871.00,59.52
868.00,69.44
865.00,76.82
862.00,81.34
859.00,84.17
856.00,85.87
853.00,86.83
850.00,86.39
847.00,85.47
844.00,86.34
841.00,85.99
838.00,85.15
835.00,84.17
832.00,83.47
829.00,83.42
826.00,83.96
823.00,84.75
820.00,85.38
817.00,85.78
814.00,85.94
811.00,85.95
808.00,85.94
805.00,85.98
802.00,86.14
799.00,86.38
796.00,86.54
793.00,86.75
790.00,86.72
787.00,86.49
784.00,85.99
781.00,85.64
778.00,86.11
775.00,86.88
772.00,87.23
769.00,87.30
766.00,87.23
763.00,87.16
760.00,87.17
757.00,87.23
754.00,87.34
751.00,87.54
748.00,87.81
745.00,88.03
742.00,88.11
739.00,88.10
736.00,88.07
733.00,87.96
730.00,87.86
727.00,87.95
724.00,88.10
721.00,87.70
718.00,85.31
715.00,77.15
712.00,71.15
709.00,78.64
706.00,83.44
703.00,85.04
700.00,85.71
697.00,86.02
694.00,86.22
691.00,86.30
688.00,86.31
685.00,86.32
682.00,86.29
679.00,86.20
676.00,86.21
673.00,86.21
670.00,86.35
667.00,86.16
664.00,85.98
661.00,85.98
658.00,85.99
655.00,85.92
652.00,85.78
649.00,85.78
646.00,85.72
643.00,85.56
640.00,85.54
637.00,85.79
634.00,85.92
631.00,85.86
628.00,85.94
625.00,85.86
622.00,85.59
619.00,85.10
616.00,85.17
613.00,85.14
610.00,84.81
607.00,85.10
604.00,85.15
601.00,85.31
598.00,84.77
595.00,84.33
592.00,84.61
589.00,84.48
586.00,84.00
583.00,83.75
580.00,84.19
577.00,84.10
574.00,83.84
571.00,83.39
568.00,84.03
565.00,83.90
562.00,82.95
559.00,83.40
556.00,83.52
553.00,83.43
550.00,83.08